NPP VIIRS Band Averaged Relative Spectral Response from Northrop Grumman October 2011 release to govt team.
    WL(um)      RSR
   11.0320    0.005065
   11.0330    0.005169
   11.0340    0.005275
   11.0350    0.005385
   11.0360    0.005495
   11.0370    0.005605
   11.0380    0.005715
   11.0390    0.005832
   11.0400    0.005949
   11.0410    0.006067
   11.0420    0.006184
   11.0430    0.006302
   11.0440    0.006419
   11.0450    0.006536
   11.0460    0.006656
   11.0470    0.006781
   11.0480    0.006906
   11.0490    0.007032
   11.0500    0.007157
   11.0510    0.007283
   11.0520    0.007408
   11.0530    0.007534
   11.0540    0.007659
   11.0550    0.007784
   11.0560    0.007910
   11.0570    0.008035
   11.0580    0.008161
   11.0590    0.008286
   11.0600    0.008412
   11.0610    0.008537
   11.0620    0.008662
   11.0630    0.008788
   11.0640    0.008913
   11.0650    0.009039
   11.0660    0.009164
   11.0670    0.009290
   11.0680    0.009415
   11.0690    0.009540
   11.0700    0.009666
   11.0710    0.009791
   11.0720    0.009917
   11.0730    0.010042
   11.0740    0.010168
   11.0750    0.010293
   11.0760    0.010418
   11.0770    0.010544
   11.0780    0.010669
   11.0790    0.010795
   11.0800    0.010920
   11.0810    0.011046
   11.0820    0.011171
   11.0830    0.011296
   11.0840    0.011422
   11.0850    0.011547
   11.0860    0.011673
   11.0870    0.011798
   11.0880    0.011924
   11.0890    0.012049
   11.0900    0.012174
   11.0910    0.012300
   11.0920    0.012425
   11.0930    0.012551
   11.0940    0.012676
   11.0950    0.012802
   11.0960    0.012927
   11.0970    0.013053
   11.0980    0.013178
   11.0990    0.013303
   11.1000    0.013429
   11.1010    0.013554
   11.1020    0.013680
   11.1030    0.013805
   11.1040    0.013931
   11.1050    0.014056
   11.1060    0.014181
   11.1070    0.014307
   11.1080    0.014432
   11.1090    0.014558
   11.1100    0.014683
   11.1110    0.014809
   11.1120    0.014934
   11.1130    0.015059
   11.1140    0.015185
   11.1150    0.015310
   11.1160    0.015436
   11.1170    0.015561
   11.1180    0.015687
   11.1190    0.015812
   11.1200    0.015937
   11.1210    0.016063
   11.1220    0.016188
   11.1230    0.016314
   11.1240    0.016439
   11.1250    0.016565
   11.1260    0.016690
   11.1270    0.016815
   11.1280    0.016941
   11.1290    0.017066
   11.1300    0.017192
   11.1310    0.017317
   11.1320    0.017443
   11.1330    0.017568
   11.1340    0.017693
   11.1350    0.017819
   11.1360    0.017944
   11.1370    0.018070
   11.1380    0.018195
   11.1390    0.018321
   11.1400    0.018446
   11.1410    0.018572
   11.1420    0.018697
   11.1430    0.018822
   11.1440    0.018948
   11.1450    0.019073
   11.1460    0.019199
   11.1470    0.019324
   11.1480    0.019450
   11.1490    0.019575
   11.1500    0.019720
   11.1510    0.019921
   11.1520    0.020147
   11.1530    0.020383
   11.1540    0.020629
   11.1550    0.020903
   11.1560    0.021208
   11.1570    0.021530
   11.1580    0.021857
   11.1590    0.022185
   11.1600    0.022523
   11.1610    0.022876
   11.1620    0.023252
   11.1630    0.023639
   11.1640    0.024033
   11.1650    0.024441
   11.1660    0.024849
   11.1670    0.025257
   11.1680    0.025665
   11.1690    0.026093
   11.1700    0.026521
   11.1710    0.026950
   11.1720    0.027379
   11.1730    0.027807
   11.1740    0.028236
   11.1750    0.028664
   11.1760    0.029098
   11.1770    0.029550
   11.1780    0.030003
   11.1790    0.030455
   11.1800    0.030907
   11.1810    0.031359
   11.1820    0.031812
   11.1830    0.032264
   11.1840    0.032716
   11.1850    0.033168
   11.1860    0.033621
   11.1870    0.034073
   11.1880    0.034525
   11.1890    0.034977
   11.1900    0.035430
   11.1910    0.035882
   11.1920    0.036334
   11.1930    0.036787
   11.1940    0.037239
   11.1950    0.037691
   11.1960    0.038143
   11.1970    0.038596
   11.1980    0.039048
   11.1990    0.039500
   11.2000    0.039952
   11.2010    0.040405
   11.2020    0.040857
   11.2030    0.041309
   11.2040    0.041761
   11.2050    0.042214
   11.2060    0.042666
   11.2070    0.043118
   11.2080    0.043571
   11.2090    0.044023
   11.2100    0.044475
   11.2110    0.044927
   11.2120    0.045380
   11.2130    0.045832
   11.2140    0.046284
   11.2150    0.046779
   11.2160    0.047396
   11.2170    0.048068
   11.2180    0.048761
   11.2190    0.049476
   11.2200    0.050250
   11.2210    0.051093
   11.2220    0.051971
   11.2230    0.052860
   11.2240    0.053750
   11.2250    0.054666
   11.2260    0.055611
   11.2270    0.056611
   11.2280    0.057634
   11.2290    0.058672
   11.2300    0.059742
   11.2310    0.060813
   11.2320    0.061883
   11.2330    0.062954
   11.2340    0.064068
   11.2350    0.065184
   11.2360    0.066300
   11.2370    0.067416
   11.2380    0.068531
   11.2390    0.069647
   11.2400    0.070763
   11.2410    0.071890
   11.2420    0.073058
   11.2430    0.074226
   11.2440    0.075394
   11.2450    0.076563
   11.2460    0.077731
   11.2470    0.078899
   11.2480    0.080067
   11.2490    0.081235
   11.2500    0.082403
   11.2510    0.083571
   11.2520    0.084739
   11.2530    0.085907
   11.2540    0.087076
   11.2550    0.088244
   11.2560    0.089412
   11.2570    0.090580
   11.2580    0.091748
   11.2590    0.092916
   11.2600    0.094084
   11.2610    0.095252
   11.2620    0.096421
   11.2630    0.097589
   11.2640    0.098757
   11.2650    0.099925
   11.2660    0.101093
   11.2670    0.102261
   11.2680    0.103429
   11.2690    0.104597
   11.2700    0.105765
   11.2710    0.106934
   11.2720    0.108102
   11.2730    0.109270
   11.2740    0.110438
   11.2750    0.111606
   11.2760    0.112774
   11.2770    0.113942
   11.2780    0.115110
   11.2790    0.116278
   11.2800    0.117531
   11.2810    0.119024
   11.2820    0.120628
   11.2830    0.122273
   11.2840    0.123961
   11.2850    0.125767
   11.2860    0.127711
   11.2870    0.129727
   11.2880    0.131766
   11.2890    0.133806
   11.2900    0.135895
   11.2910    0.138043
   11.2920    0.140296
   11.2930    0.142595
   11.2940    0.144925
   11.2950    0.147319
   11.2960    0.149712
   11.2970    0.152106
   11.2980    0.154500
   11.2990    0.156982
   11.3000    0.159467
   11.3010    0.161953
   11.3020    0.164438
   11.3030    0.166924
   11.3040    0.169409
   11.3050    0.171894
   11.3060    0.174401
   11.3070    0.176990
   11.3080    0.179579
   11.3090    0.182168
   11.3100    0.184757
   11.3110    0.187346
   11.3120    0.189935
   11.3130    0.192524
   11.3140    0.195113
   11.3150    0.197702
   11.3160    0.200291
   11.3170    0.202880
   11.3180    0.205469
   11.3190    0.208058
   11.3200    0.210647
   11.3210    0.213236
   11.3220    0.215825
   11.3230    0.218414
   11.3240    0.221003
   11.3250    0.223592
   11.3260    0.226181
   11.3270    0.228770
   11.3280    0.231359
   11.3290    0.233949
   11.3300    0.236538
   11.3310    0.239127
   11.3320    0.241716
   11.3330    0.244305
   11.3340    0.246894
   11.3350    0.249483
   11.3360    0.252072
   11.3370    0.254661
   11.3380    0.257250
   11.3390    0.259839
   11.3400    0.262428
   11.3410    0.265017
   11.3420    0.267606
   11.3430    0.270195
   11.3440    0.272784
   11.3450    0.275453
   11.3460    0.278311
   11.3470    0.281265
   11.3480    0.284258
   11.3490    0.287294
   11.3500    0.290424
   11.3510    0.293670
   11.3520    0.296983
   11.3530    0.300320
   11.3540    0.303656
   11.3550    0.307039
   11.3560    0.310477
   11.3570    0.314003
   11.3580    0.317563
   11.3590    0.321144
   11.3600    0.324767
   11.3610    0.328391
   11.3620    0.332015
   11.3630    0.335638
   11.3640    0.339340
   11.3650    0.343045
   11.3660    0.346750
   11.3670    0.350455
   11.3680    0.354159
   11.3690    0.357864
   11.3700    0.361569
   11.3710    0.365287
   11.3720    0.369052
   11.3730    0.372817
   11.3740    0.376582
   11.3750    0.380347
   11.3760    0.384112
   11.3770    0.387877
   11.3780    0.391643
   11.3790    0.395408
   11.3800    0.399173
   11.3810    0.402938
   11.3820    0.406703
   11.3830    0.410468
   11.3840    0.414233
   11.3850    0.417998
   11.3860    0.421763
   11.3870    0.425529
   11.3880    0.429294
   11.3890    0.433059
   11.3900    0.436824
   11.3910    0.440589
   11.3920    0.444354
   11.3930    0.448119
   11.3940    0.451884
   11.3950    0.455649
   11.3960    0.459414
   11.3970    0.463179
   11.3980    0.466944
   11.3990    0.470709
   11.4000    0.474474
   11.4010    0.478239
   11.4020    0.482004
   11.4030    0.485769
   11.4040    0.489534
   11.4050    0.493299
   11.4060    0.497065
   11.4070    0.500831
   11.4080    0.504596
   11.4090    0.508361
   11.4100    0.512099
   11.4110    0.515781
   11.4120    0.519433
   11.4130    0.523073
   11.4140    0.526700
   11.4150    0.530301
   11.4160    0.533865
   11.4170    0.537410
   11.4180    0.540949
   11.4190    0.544487
   11.4200    0.548011
   11.4210    0.551517
   11.4220    0.554990
   11.4230    0.558452
   11.4240    0.561904
   11.4250    0.565337
   11.4260    0.568769
   11.4270    0.572202
   11.4280    0.575634
   11.4290    0.579030
   11.4300    0.582424
   11.4310    0.585819
   11.4320    0.589213
   11.4330    0.592608
   11.4340    0.596002
   11.4350    0.599396
   11.4360    0.602782
   11.4370    0.606133
   11.4380    0.609484
   11.4390    0.612837
   11.4400    0.616188
   11.4410    0.619540
   11.4420    0.622891
   11.4430    0.626242
   11.4440    0.629594
   11.4450    0.632945
   11.4460    0.636296
   11.4470    0.639648
   11.4480    0.642999
   11.4490    0.646350
   11.4500    0.649702
   11.4510    0.653053
   11.4520    0.656404
   11.4530    0.659756
   11.4540    0.663107
   11.4550    0.666459
   11.4560    0.669810
   11.4570    0.673161
   11.4580    0.676513
   11.4590    0.679864
   11.4600    0.683215
   11.4610    0.686567
   11.4620    0.689918
   11.4630    0.693269
   11.4640    0.696621
   11.4650    0.699972
   11.4660    0.703323
   11.4670    0.706675
   11.4680    0.710026
   11.4690    0.713378
   11.4700    0.716729
   11.4710    0.720080
   11.4720    0.723432
   11.4730    0.726784
   11.4740    0.730135
   11.4750    0.733378
   11.4760    0.736320
   11.4770    0.739120
   11.4780    0.741867
   11.4790    0.744555
   11.4800    0.747099
   11.4810    0.749474
   11.4820    0.751758
   11.4830    0.754013
   11.4840    0.756267
   11.4850    0.758461
   11.4860    0.760582
   11.4870    0.762579
   11.4880    0.764523
   11.4890    0.766433
   11.4900    0.768271
   11.4910    0.770109
   11.4920    0.771947
   11.4930    0.773786
   11.4940    0.775515
   11.4950    0.777240
   11.4960    0.778966
   11.4970    0.780691
   11.4980    0.782417
   11.4990    0.784143
   11.5000    0.785868
   11.5010    0.787569
   11.5020    0.789178
   11.5030    0.790787
   11.5040    0.792396
   11.5050    0.794005
   11.5060    0.795613
   11.5070    0.797222
   11.5080    0.798831
   11.5090    0.800440
   11.5100    0.802049
   11.5110    0.803658
   11.5120    0.805267
   11.5130    0.806875
   11.5140    0.808484
   11.5150    0.810093
   11.5160    0.811702
   11.5170    0.813311
   11.5180    0.814920
   11.5190    0.816529
   11.5200    0.818137
   11.5210    0.819746
   11.5220    0.821355
   11.5230    0.822964
   11.5240    0.824573
   11.5250    0.826182
   11.5260    0.827791
   11.5270    0.829400
   11.5280    0.831008
   11.5290    0.832618
   11.5300    0.834226
   11.5310    0.835836
   11.5320    0.837444
   11.5330    0.839054
   11.5340    0.840663
   11.5350    0.842271
   11.5360    0.843880
   11.5370    0.845489
   11.5380    0.847098
   11.5390    0.848707
   11.5400    0.850278
   11.5410    0.851746
   11.5420    0.853167
   11.5430    0.854570
   11.5440    0.855953
   11.5450    0.857286
   11.5460    0.858561
   11.5470    0.859805
   11.5480    0.861038
   11.5490    0.862271
   11.5500    0.863484
   11.5510    0.864673
   11.5520    0.865822
   11.5530    0.866954
   11.5540    0.868075
   11.5550    0.869172
   11.5560    0.870269
   11.5570    0.871366
   11.5580    0.872463
   11.5590    0.873530
   11.5600    0.874596
   11.5610    0.875662
   11.5620    0.876727
   11.5630    0.877793
   11.5640    0.878859
   11.5650    0.879925
   11.5660    0.880982
   11.5670    0.882010
   11.5680    0.883038
   11.5690    0.884066
   11.5700    0.885094
   11.5710    0.886122
   11.5720    0.887150
   11.5730    0.888177
   11.5740    0.889205
   11.5750    0.890233
   11.5760    0.891261
   11.5770    0.892289
   11.5780    0.893317
   11.5790    0.894345
   11.5800    0.895373
   11.5810    0.896400
   11.5820    0.897428
   11.5830    0.898456
   11.5840    0.899484
   11.5850    0.900512
   11.5860    0.901540
   11.5870    0.902568
   11.5880    0.903596
   11.5890    0.904623
   11.5900    0.905651
   11.5910    0.906679
   11.5920    0.907707
   11.5930    0.908735
   11.5940    0.909763
   11.5950    0.910791
   11.5960    0.911819
   11.5970    0.912846
   11.5980    0.913874
   11.5990    0.914902
   11.6000    0.915930
   11.6010    0.916958
   11.6020    0.917986
   11.6030    0.919014
   11.6040    0.920042
   11.6050    0.921040
   11.6060    0.921958
   11.6070    0.922836
   11.6080    0.923698
   11.6090    0.924544
   11.6100    0.925344
   11.6110    0.926090
   11.6120    0.926806
   11.6130    0.927513
   11.6140    0.928220
   11.6150    0.928907
   11.6160    0.929570
   11.6170    0.930191
   11.6180    0.930794
   11.6190    0.931385
   11.6200    0.931950
   11.6210    0.932516
   11.6220    0.933081
   11.6230    0.933647
   11.6240    0.934174
   11.6250    0.934699
   11.6260    0.935225
   11.6270    0.935750
   11.6280    0.936276
   11.6290    0.936801
   11.6300    0.937327
   11.6310    0.937845
   11.6320    0.938336
   11.6330    0.938827
   11.6340    0.939318
   11.6350    0.939809
   11.6360    0.940299
   11.6370    0.940790
   11.6380    0.941281
   11.6390    0.941772
   11.6400    0.942263
   11.6410    0.942754
   11.6420    0.943245
   11.6430    0.943737
   11.6440    0.944228
   11.6450    0.944719
   11.6460    0.945210
   11.6470    0.945701
   11.6480    0.946192
   11.6490    0.946683
   11.6500    0.947174
   11.6510    0.947664
   11.6520    0.948156
   11.6530    0.948647
   11.6540    0.949138
   11.6550    0.949629
   11.6560    0.950119
   11.6570    0.950611
   11.6580    0.951101
   11.6590    0.951592
   11.6600    0.952083
   11.6610    0.952574
   11.6620    0.953065
   11.6630    0.953556
   11.6640    0.954047
   11.6650    0.954538
   11.6660    0.955029
   11.6670    0.955520
   11.6680    0.956011
   11.6690    0.956502
   11.6700    0.956960
   11.6710    0.957350
   11.6720    0.957702
   11.6730    0.958038
   11.6740    0.958358
   11.6750    0.958641
   11.6760    0.958877
   11.6770    0.959085
   11.6780    0.959282
   11.6790    0.959479
   11.6800    0.959654
   11.6810    0.959802
   11.6820    0.959910
   11.6830    0.960004
   11.6840    0.960090
   11.6850    0.960160
   11.6860    0.960230
   11.6870    0.960300
   11.6880    0.960370
   11.6890    0.960407
   11.6900    0.960443
   11.6910    0.960479
   11.6920    0.960515
   11.6930    0.960551
   11.6940    0.960587
   11.6950    0.960623
   11.6960    0.960655
   11.6970    0.960670
   11.6980    0.960685
   11.6990    0.960699
   11.7000    0.960714
   11.7010    0.960729
   11.7020    0.960744
   11.7030    0.960759
   11.7040    0.960774
   11.7050    0.960789
   11.7060    0.960804
   11.7070    0.960819
   11.7080    0.960834
   11.7090    0.960848
   11.7100    0.960863
   11.7110    0.960878
   11.7120    0.960893
   11.7130    0.960908
   11.7140    0.960923
   11.7150    0.960938
   11.7160    0.960953
   11.7170    0.960968
   11.7180    0.960983
   11.7190    0.960997
   11.7200    0.961012
   11.7210    0.961027
   11.7220    0.961042
   11.7230    0.961057
   11.7240    0.961072
   11.7250    0.961087
   11.7260    0.961102
   11.7270    0.961117
   11.7280    0.961132
   11.7290    0.961146
   11.7300    0.961161
   11.7310    0.961176
   11.7320    0.961191
   11.7330    0.961206
   11.7340    0.961221
   11.7350    0.961255
   11.7360    0.961295
   11.7370    0.961349
   11.7380    0.961410
   11.7390    0.961481
   11.7400    0.961556
   11.7410    0.961638
   11.7420    0.961731
   11.7430    0.961828
   11.7440    0.961925
   11.7450    0.962030
   11.7460    0.962145
   11.7470    0.962269
   11.7480    0.962390
   11.7490    0.962510
   11.7500    0.962628
   11.7510    0.962745
   11.7520    0.962863
   11.7530    0.962981
   11.7540    0.963116
   11.7550    0.963252
   11.7560    0.963387
   11.7570    0.963523
   11.7580    0.963659
   11.7590    0.963795
   11.7600    0.963931
   11.7610    0.964065
   11.7620    0.964194
   11.7630    0.964323
   11.7640    0.964452
   11.7650    0.964581
   11.7660    0.964709
   11.7670    0.964838
   11.7680    0.964967
   11.7690    0.965096
   11.7700    0.965225
   11.7710    0.965354
   11.7720    0.965482
   11.7730    0.965611
   11.7740    0.965740
   11.7750    0.965869
   11.7760    0.965998
   11.7770    0.966127
   11.7780    0.966255
   11.7790    0.966384
   11.7800    0.966513
   11.7810    0.966642
   11.7820    0.966771
   11.7830    0.966900
   11.7840    0.967029
   11.7850    0.967157
   11.7860    0.967286
   11.7870    0.967415
   11.7880    0.967544
   11.7890    0.967673
   11.7900    0.967802
   11.7910    0.967930
   11.7920    0.968059
   11.7930    0.968188
   11.7940    0.968317
   11.7950    0.968446
   11.7960    0.968575
   11.7970    0.968703
   11.7980    0.968832
   11.7990    0.968961
   11.8000    0.969109
   11.8010    0.969336
   11.8020    0.969593
   11.8030    0.969859
   11.8040    0.970136
   11.8050    0.970447
   11.8060    0.970795
   11.8070    0.971158
   11.8080    0.971525
   11.8090    0.971893
   11.8100    0.972267
   11.8110    0.972651
   11.8120    0.973056
   11.8130    0.973473
   11.8140    0.973900
   11.8150    0.974347
   11.8160    0.974794
   11.8170    0.975241
   11.8180    0.975688
   11.8190    0.976150
   11.8200    0.976612
   11.8210    0.977074
   11.8220    0.977536
   11.8230    0.977999
   11.8240    0.978461
   11.8250    0.978923
   11.8260    0.979393
   11.8270    0.979894
   11.8280    0.980394
   11.8290    0.980895
   11.8300    0.981395
   11.8310    0.981895
   11.8320    0.982396
   11.8330    0.982896
   11.8340    0.983397
   11.8350    0.983897
   11.8360    0.984397
   11.8370    0.984898
   11.8380    0.985398
   11.8390    0.985899
   11.8400    0.986399
   11.8410    0.986899
   11.8420    0.987400
   11.8430    0.987900
   11.8440    0.988401
   11.8450    0.988901
   11.8460    0.989402
   11.8470    0.989902
   11.8480    0.990402
   11.8490    0.990903
   11.8500    0.991403
   11.8510    0.991904
   11.8520    0.992404
   11.8530    0.992904
   11.8540    0.993405
   11.8550    0.993905
   11.8560    0.994406
   11.8570    0.994906
   11.8580    0.995406
   11.8590    0.995907
   11.8600    0.996407
   11.8610    0.996908
   11.8620    0.997408
   11.8630    0.997908
   11.8640    0.998409
   11.8650    0.998849
   11.8660    0.999169
   11.8670    0.999421
   11.8680    0.999643
   11.8690    0.999834
   11.8700    0.999960
   11.8710    1.000000
   11.8720    0.999989
   11.8730    0.999960
   11.8740    0.999931
   11.8750    0.999863
   11.8760    0.999749
   11.8770    0.999560
   11.8780    0.999346
   11.8790    0.999115
   11.8800    0.998851
   11.8810    0.998587
   11.8820    0.998323
   11.8830    0.998059
   11.8840    0.997726
   11.8850    0.997390
   11.8860    0.997054
   11.8870    0.996718
   11.8880    0.996382
   11.8890    0.996046
   11.8900    0.995710
   11.8910    0.995364
   11.8920    0.994982
   11.8930    0.994600
   11.8940    0.994218
   11.8950    0.993836
   11.8960    0.993454
   11.8970    0.993072
   11.8980    0.992690
   11.8990    0.992308
   11.9000    0.991926
   11.9010    0.991544
   11.9020    0.991162
   11.9030    0.990780
   11.9040    0.990398
   11.9050    0.990016
   11.9060    0.989634
   11.9070    0.989252
   11.9080    0.988870
   11.9090    0.988488
   11.9100    0.988106
   11.9110    0.987724
   11.9120    0.987342
   11.9130    0.986960
   11.9140    0.986578
   11.9150    0.986195
   11.9160    0.985813
   11.9170    0.985431
   11.9180    0.985049
   11.9190    0.984667
   11.9200    0.984285
   11.9210    0.983903
   11.9220    0.983521
   11.9230    0.983139
   11.9240    0.982757
   11.9250    0.982375
   11.9260    0.981993
   11.9270    0.981611
   11.9280    0.981229
   11.9290    0.980847
   11.9300    0.980440
   11.9310    0.979862
   11.9320    0.979233
   11.9330    0.978592
   11.9340    0.977938
   11.9350    0.977214
   11.9360    0.976417
   11.9370    0.975596
   11.9380    0.974769
   11.9390    0.973942
   11.9400    0.973101
   11.9410    0.972242
   11.9420    0.971335
   11.9430    0.970394
   11.9440    0.969430
   11.9450    0.968421
   11.9460    0.967412
   11.9470    0.966404
   11.9480    0.965395
   11.9490    0.964369
   11.9500    0.963343
   11.9510    0.962317
   11.9520    0.961291
   11.9530    0.960265
   11.9540    0.959239
   11.9550    0.958213
   11.9560    0.957173
   11.9570    0.956080
   11.9580    0.954986
   11.9590    0.953893
   11.9600    0.952799
   11.9610    0.951706
   11.9620    0.950613
   11.9630    0.949519
   11.9640    0.948426
   11.9650    0.947332
   11.9660    0.946239
   11.9670    0.945145
   11.9680    0.944052
   11.9690    0.942958
   11.9700    0.941864
   11.9710    0.940771
   11.9720    0.939677
   11.9730    0.938584
   11.9740    0.937490
   11.9750    0.936397
   11.9760    0.935304
   11.9770    0.934210
   11.9780    0.933117
   11.9790    0.932023
   11.9800    0.930930
   11.9810    0.929836
   11.9820    0.928743
   11.9830    0.927650
   11.9840    0.926556
   11.9850    0.925463
   11.9860    0.924369
   11.9870    0.923276
   11.9880    0.922183
   11.9890    0.921089
   11.9900    0.919996
   11.9910    0.918902
   11.9920    0.917809
   11.9930    0.916715
   11.9940    0.915622
   11.9950    0.914507
   11.9960    0.913387
   11.9970    0.912251
   11.9980    0.911107
   11.9990    0.909952
   12.0000    0.908792
   12.0010    0.907621
   12.0020    0.906437
   12.0030    0.905248
   12.0040    0.904059
   12.0050    0.902860
   12.0060    0.901649
   12.0070    0.900427
   12.0080    0.899207
   12.0090    0.897989
   12.0100    0.896773
   12.0110    0.895558
   12.0120    0.894342
   12.0130    0.893127
   12.0140    0.891894
   12.0150    0.890659
   12.0160    0.889425
   12.0170    0.888191
   12.0180    0.886957
   12.0190    0.885723
   12.0200    0.884489
   12.0210    0.883257
   12.0220    0.882031
   12.0230    0.880805
   12.0240    0.879579
   12.0250    0.878354
   12.0260    0.877128
   12.0270    0.875902
   12.0280    0.874676
   12.0290    0.873450
   12.0300    0.872224
   12.0310    0.870998
   12.0320    0.869772
   12.0330    0.868546
   12.0340    0.867320
   12.0350    0.866095
   12.0360    0.864869
   12.0370    0.863643
   12.0380    0.862417
   12.0390    0.861191
   12.0400    0.859965
   12.0410    0.858739
   12.0420    0.857513
   12.0430    0.856287
   12.0440    0.855062
   12.0450    0.853836
   12.0460    0.852610
   12.0470    0.851384
   12.0480    0.850158
   12.0490    0.848932
   12.0500    0.847706
   12.0510    0.846480
   12.0520    0.845254
   12.0530    0.844028
   12.0540    0.842803
   12.0550    0.841577
   12.0560    0.840351
   12.0570    0.839125
   12.0580    0.837899
   12.0590    0.836672
   12.0600    0.835447
   12.0610    0.834221
   12.0620    0.832996
   12.0630    0.831773
   12.0640    0.830549
   12.0650    0.829331
   12.0660    0.828122
   12.0670    0.826920
   12.0680    0.825721
   12.0690    0.824521
   12.0700    0.823328
   12.0710    0.822143
   12.0720    0.820971
   12.0730    0.819803
   12.0740    0.818638
   12.0750    0.817480
   12.0760    0.816323
   12.0770    0.815165
   12.0780    0.814007
   12.0790    0.812863
   12.0800    0.811720
   12.0810    0.810577
   12.0820    0.809433
   12.0830    0.808290
   12.0840    0.807147
   12.0850    0.806004
   12.0860    0.804861
   12.0870    0.803722
   12.0880    0.802583
   12.0890    0.801444
   12.0900    0.800306
   12.0910    0.799167
   12.0920    0.798027
   12.0930    0.796888
   12.0940    0.795750
   12.0950    0.794611
   12.0960    0.793472
   12.0970    0.792333
   12.0980    0.791194
   12.0990    0.790055
   12.1000    0.788916
   12.1010    0.787777
   12.1020    0.786638
   12.1030    0.785499
   12.1040    0.784360
   12.1050    0.783221
   12.1060    0.782082
   12.1070    0.780943
   12.1080    0.779804
   12.1090    0.778665
   12.1100    0.777526
   12.1110    0.776387
   12.1120    0.775248
   12.1130    0.774109
   12.1140    0.772970
   12.1150    0.771831
   12.1160    0.770692
   12.1170    0.769553
   12.1180    0.768414
   12.1190    0.767275
   12.1200    0.766136
   12.1210    0.764997
   12.1220    0.763858
   12.1230    0.762719
   12.1240    0.761580
   12.1250    0.760457
   12.1260    0.759393
   12.1270    0.758353
   12.1280    0.757322
   12.1290    0.756302
   12.1300    0.755313
   12.1310    0.754360
   12.1320    0.753426
   12.1330    0.752498
   12.1340    0.751570
   12.1350    0.750656
   12.1360    0.749760
   12.1370    0.748895
   12.1380    0.748046
   12.1390    0.747206
   12.1400    0.746386
   12.1410    0.745567
   12.1420    0.744747
   12.1430    0.743927
   12.1440    0.743133
   12.1450    0.742340
   12.1460    0.741546
   12.1470    0.740753
   12.1480    0.739960
   12.1490    0.739166
   12.1500    0.738373
   12.1510    0.737585
   12.1520    0.736817
   12.1530    0.736050
   12.1540    0.735282
   12.1550    0.734514
   12.1560    0.733746
   12.1570    0.732978
   12.1580    0.732210
   12.1590    0.731442
   12.1600    0.730675
   12.1610    0.729907
   12.1620    0.729139
   12.1630    0.728371
   12.1640    0.727603
   12.1650    0.726835
   12.1660    0.726067
   12.1670    0.725300
   12.1680    0.724531
   12.1690    0.723764
   12.1700    0.722996
   12.1710    0.722228
   12.1720    0.721460
   12.1730    0.720692
   12.1740    0.719925
   12.1750    0.719157
   12.1760    0.718388
   12.1770    0.717620
   12.1780    0.716852
   12.1790    0.716084
   12.1800    0.715316
   12.1810    0.714549
   12.1820    0.713781
   12.1830    0.713013
   12.1840    0.712245
   12.1850    0.711477
   12.1860    0.710709
   12.1870    0.709941
   12.1880    0.709173
   12.1890    0.708406
   12.1900    0.707635
   12.1910    0.706858
   12.1920    0.706078
   12.1930    0.705296
   12.1940    0.704512
   12.1950    0.703726
   12.1960    0.702935
   12.1970    0.702143
   12.1980    0.701351
   12.1990    0.700559
   12.2000    0.699765
   12.2010    0.698969
   12.2020    0.698165
   12.2030    0.697359
   12.2040    0.696551
   12.2050    0.695737
   12.2060    0.694922
   12.2070    0.694107
   12.2080    0.693293
   12.2090    0.692461
   12.2100    0.691629
   12.2110    0.690797
   12.2120    0.689965
   12.2130    0.689133
   12.2140    0.688301
   12.2150    0.687470
   12.2160    0.686634
   12.2170    0.685786
   12.2180    0.684938
   12.2190    0.684090
   12.2200    0.683242
   12.2210    0.682394
   12.2220    0.681546
   12.2230    0.680698
   12.2240    0.679849
   12.2250    0.679001
   12.2260    0.678153
   12.2270    0.677305
   12.2280    0.676457
   12.2290    0.675609
   12.2300    0.674761
   12.2310    0.673913
   12.2320    0.673065
   12.2330    0.672217
   12.2340    0.671369
   12.2350    0.670521
   12.2360    0.669672
   12.2370    0.668824
   12.2380    0.667976
   12.2390    0.667128
   12.2400    0.666280
   12.2410    0.665432
   12.2420    0.664584
   12.2430    0.663736
   12.2440    0.662888
   12.2450    0.662040
   12.2460    0.661192
   12.2470    0.660344
   12.2480    0.659496
   12.2490    0.658647
   12.2500    0.657799
   12.2510    0.656951
   12.2520    0.656103
   12.2530    0.655255
   12.2540    0.654407
   12.2550    0.653482
   12.2560    0.652303
   12.2570    0.651019
   12.2580    0.649697
   12.2590    0.648334
   12.2600    0.646855
   12.2610    0.645244
   12.2620    0.643567
   12.2630    0.641870
   12.2640    0.640172
   12.2650    0.638430
   12.2660    0.636636
   12.2670    0.634742
   12.2680    0.632802
   12.2690    0.630830
   12.2700    0.628794
   12.2710    0.626758
   12.2720    0.624722
   12.2730    0.622686
   12.2740    0.620572
   12.2750    0.618456
   12.2760    0.616340
   12.2770    0.614223
   12.2780    0.612107
   12.2790    0.609990
   12.2800    0.607873
   12.2810    0.605737
   12.2820    0.603525
   12.2830    0.601314
   12.2840    0.599102
   12.2850    0.596890
   12.2860    0.594679
   12.2870    0.592467
   12.2880    0.590256
   12.2890    0.588044
   12.2900    0.585832
   12.2910    0.583621
   12.2920    0.581409
   12.2930    0.579198
   12.2940    0.576986
   12.2950    0.574774
   12.2960    0.572563
   12.2970    0.570351
   12.2980    0.568140
   12.2990    0.565928
   12.3000    0.563716
   12.3010    0.561505
   12.3020    0.559293
   12.3030    0.557082
   12.3040    0.554870
   12.3050    0.552658
   12.3060    0.550447
   12.3070    0.548235
   12.3080    0.546024
   12.3090    0.543812
   12.3100    0.541601
   12.3110    0.539389
   12.3120    0.537177
   12.3130    0.534966
   12.3140    0.532754
   12.3150    0.530543
   12.3160    0.528331
   12.3170    0.526119
   12.3180    0.523908
   12.3190    0.521696
   12.3200    0.519412
   12.3210    0.516976
   12.3220    0.514456
   12.3230    0.511900
   12.3240    0.509306
   12.3250    0.506634
   12.3260    0.503868
   12.3270    0.501045
   12.3280    0.498201
   12.3290    0.495357
   12.3300    0.492476
   12.3310    0.489552
   12.3320    0.486564
   12.3330    0.483554
   12.3340    0.480531
   12.3350    0.477482
   12.3360    0.474434
   12.3370    0.471385
   12.3380    0.468337
   12.3390    0.465234
   12.3400    0.462130
   12.3410    0.459026
   12.3420    0.455922
   12.3430    0.452818
   12.3440    0.449713
   12.3450    0.446609
   12.3460    0.443499
   12.3470    0.440365
   12.3480    0.437231
   12.3490    0.434097
   12.3500    0.430963
   12.3510    0.427829
   12.3520    0.424695
   12.3530    0.421561
   12.3540    0.418427
   12.3550    0.415293
   12.3560    0.412159
   12.3570    0.409025
   12.3580    0.405891
   12.3590    0.402757
   12.3600    0.399623
   12.3610    0.396490
   12.3620    0.393356
   12.3630    0.390222
   12.3640    0.387087
   12.3650    0.383953
   12.3660    0.380819
   12.3670    0.377685
   12.3680    0.374551
   12.3690    0.371417
   12.3700    0.368283
   12.3710    0.365149
   12.3720    0.362015
   12.3730    0.358881
   12.3740    0.355747
   12.3750    0.352613
   12.3760    0.349479
   12.3770    0.346346
   12.3780    0.343212
   12.3790    0.340078
   12.3800    0.336944
   12.3810    0.333810
   12.3820    0.330676
   12.3830    0.327542
   12.3840    0.324408
   12.3850    0.321315
   12.3860    0.318336
   12.3870    0.315410
   12.3880    0.312503
   12.3890    0.309616
   12.3900    0.306782
   12.3910    0.304012
   12.3920    0.301274
   12.3930    0.298546
   12.3940    0.295818
   12.3950    0.293113
   12.3960    0.290435
   12.3970    0.287810
   12.3980    0.285205
   12.3990    0.282616
   12.4000    0.280058
   12.4010    0.277501
   12.4020    0.274942
   12.4030    0.272384
   12.4040    0.269874
   12.4050    0.267366
   12.4060    0.264857
   12.4070    0.262349
   12.4080    0.259840
   12.4090    0.257332
   12.4100    0.254823
   12.4110    0.252326
   12.4120    0.249872
   12.4130    0.247418
   12.4140    0.244964
   12.4150    0.242509
   12.4160    0.240055
   12.4170    0.237601
   12.4180    0.235146
   12.4190    0.232692
   12.4200    0.230238
   12.4210    0.227783
   12.4220    0.225329
   12.4230    0.222875
   12.4240    0.220421
   12.4250    0.217966
   12.4260    0.215512
   12.4270    0.213058
   12.4280    0.210603
   12.4290    0.208149
   12.4300    0.205695
   12.4310    0.203240
   12.4320    0.200786
   12.4330    0.198332
   12.4340    0.195878
   12.4350    0.193423
   12.4360    0.190969
   12.4370    0.188515
   12.4380    0.186060
   12.4390    0.183606
   12.4400    0.181152
   12.4410    0.178697
   12.4420    0.176243
   12.4430    0.173789
   12.4440    0.171335
   12.4450    0.168880
   12.4460    0.166426
   12.4470    0.163971
   12.4480    0.161516
   12.4490    0.159062
   12.4500    0.156687
   12.4510    0.154526
   12.4520    0.152464
   12.4530    0.150441
   12.4540    0.148460
   12.4550    0.146579
   12.4560    0.144818
   12.4570    0.143120
   12.4580    0.141443
   12.4590    0.139766
   12.4600    0.138132
   12.4610    0.136549
   12.4620    0.135053
   12.4630    0.133594
   12.4640    0.132159
   12.4650    0.130774
   12.4660    0.129388
   12.4670    0.128002
   12.4680    0.126616
   12.4690    0.125302
   12.4700    0.123989
   12.4710    0.122677
   12.4720    0.121365
   12.4730    0.120052
   12.4740    0.118740
   12.4750    0.117428
   12.4760    0.116131
   12.4770    0.114890
   12.4780    0.113649
   12.4790    0.112408
   12.4800    0.111167
   12.4810    0.109926
   12.4820    0.108685
   12.4830    0.107443
   12.4840    0.106202
   12.4850    0.104961
   12.4860    0.103720
   12.4870    0.102479
   12.4880    0.101238
   12.4890    0.099997
   12.4900    0.098756
   12.4910    0.097515
   12.4920    0.096274
   12.4930    0.095033
   12.4940    0.093792
   12.4950    0.092551
   12.4960    0.091310
   12.4970    0.090069
   12.4980    0.088828
   12.4990    0.087587
   12.5000    0.086346
   12.5010    0.085105
   12.5020    0.083864
   12.5030    0.082623
   12.5040    0.081382
   12.5050    0.080141
   12.5060    0.078899
   12.5070    0.077658
   12.5080    0.076417
   12.5090    0.075176
   12.5100    0.073935
   12.5110    0.072694
   12.5120    0.071453
   12.5130    0.070212
   12.5140    0.068971
   12.5150    0.067780
   12.5160    0.066718
   12.5170    0.065717
   12.5180    0.064742
   12.5190    0.063792
   12.5200    0.062904
   12.5210    0.062090
   12.5220    0.061315
   12.5230    0.060554
   12.5240    0.059793
   12.5250    0.059059
   12.5260    0.058356
   12.5270    0.057705
   12.5280    0.057075
   12.5290    0.056459
   12.5300    0.055869
   12.5310    0.055280
   12.5320    0.054689
   12.5330    0.054099
   12.5340    0.053552
   12.5350    0.053005
   12.5360    0.052458
   12.5370    0.051912
   12.5380    0.051365
   12.5390    0.050818
   12.5400    0.050272
   12.5410    0.049733
   12.5420    0.049224
   12.5430    0.048715
   12.5440    0.048207
   12.5450    0.047698
   12.5460    0.047189
   12.5470    0.046680
   12.5480    0.046171
   12.5490    0.045662
   12.5500    0.045154
   12.5510    0.044645
   12.5520    0.044136
   12.5530    0.043627
   12.5540    0.043118
   12.5550    0.042609
   12.5560    0.042101
   12.5570    0.041592
   12.5580    0.041083
   12.5590    0.040574
   12.5600    0.040065
   12.5610    0.039556
   12.5620    0.039048
   12.5630    0.038539
   12.5640    0.038030
   12.5650    0.037521
   12.5660    0.037012
   12.5670    0.036503
   12.5680    0.035994
   12.5690    0.035486
   12.5700    0.034977
   12.5710    0.034468
   12.5720    0.033959
   12.5730    0.033450
   12.5740    0.032941
   12.5750    0.032433
   12.5760    0.031924
   12.5770    0.031415
   12.5780    0.030906
   12.5790    0.030397
   12.5800    0.029909
   12.5810    0.029471
   12.5820    0.029058
   12.5830    0.028655
   12.5840    0.028263
   12.5850    0.027895
   12.5860    0.027555
   12.5870    0.027232
   12.5880    0.026914
   12.5890    0.026595
   12.5900    0.026288
   12.5910    0.025993
   12.5920    0.025718
   12.5930    0.025452
   12.5940    0.025191
   12.5950    0.024941
   12.5960    0.024690
   12.5970    0.024440
   12.5980    0.024189
   12.5990    0.023954
   12.6000    0.023720
   12.6010    0.023486
   12.6020    0.023252
   12.6030    0.023017
   12.6040    0.022783
   12.6050    0.022549
   12.6060    0.022318
   12.6070    0.022098
   12.6080    0.021878
   12.6090    0.021658
   12.6100    0.021439
   12.6110    0.021219
   12.6120    0.020999
   12.6130    0.020779
   12.6140    0.020560
   12.6150    0.020340
   12.6160    0.020120
   12.6170    0.019900
   12.6180    0.019681
   12.6190    0.019461
   12.6200    0.019241
   12.6210    0.019021
   12.6220    0.018802
   12.6230    0.018582
   12.6240    0.018362
   12.6250    0.018142
   12.6260    0.017923
   12.6270    0.017703
   12.6280    0.017483
   12.6290    0.017264
   12.6300    0.017044
   12.6310    0.016824
   12.6320    0.016604
   12.6330    0.016385
   12.6340    0.016165
   12.6350    0.015945
   12.6360    0.015725
   12.6370    0.015506
   12.6380    0.015286
   12.6390    0.015066
   12.6400    0.014846
   12.6410    0.014627
   12.6420    0.014407
   12.6430    0.014187
   12.6440    0.013967
   12.6450    0.013756
   12.6460    0.013567
   12.6470    0.013389
   12.6480    0.013215
   12.6490    0.013046
   12.6500    0.012887
   12.6510    0.012742
   12.6520    0.012604
   12.6530    0.012468
   12.6540    0.012332
   12.6550    0.012200
   12.6560    0.012074
   12.6570    0.011957
   12.6580    0.011843
   12.6590    0.011732
   12.6600    0.011625
   12.6610    0.011519
   12.6620    0.011413
   12.6630    0.011307
   12.6640    0.011208
   12.6650    0.011109
   12.6660    0.011010
   12.6670    0.010911
   12.6680    0.010812
   12.6690    0.010713
   12.6700    0.010613
   12.6710    0.010516
   12.6720    0.010423
   12.6730    0.010331
   12.6740    0.010239
   12.6750    0.010146
   12.6760    0.010054
   12.6770    0.009962
   12.6780    0.009869
   12.6790    0.009777
   12.6800    0.009684
   12.6810    0.009592
   12.6820    0.009500
   12.6830    0.009407
   12.6840    0.009315
   12.6850    0.009222
   12.6860    0.009130
   12.6870    0.009038
   12.6880    0.008945
   12.6890    0.008853
   12.6900    0.008761
   12.6910    0.008668
   12.6920    0.008576
   12.6930    0.008483
   12.6940    0.008391
   12.6950    0.008299
   12.6960    0.008206
   12.6970    0.008114
   12.6980    0.008021
   12.6990    0.007929
   12.7000    0.007837
   12.7010    0.007744
   12.7020    0.007652
   12.7030    0.007560
   12.7040    0.007467
   12.7050    0.007375
   12.7060    0.007282
   12.7070    0.007190
   12.7080    0.007098
   12.7090    0.007005
   12.7100    0.006916
   12.7110    0.006835
   12.7120    0.006758
   12.7130    0.006683
   12.7140    0.006609
   12.7150    0.006539
   12.7160    0.006474
   12.7170    0.006411
   12.7180    0.006349
   12.7190    0.006287
   12.7200    0.006227
   12.7210    0.006169
   12.7220    0.006114
   12.7230    0.006060
   12.7240    0.006008
   12.7250    0.005957
   12.7260    0.005905
   12.7270    0.005854
   12.7280    0.005803
   12.7290    0.005754
   12.7300    0.005706
   12.7310    0.005658
   12.7320    0.005609
   12.7330    0.005561
   12.7340    0.005513
   12.7350    0.005464
   12.7360    0.005417
   12.7370    0.005372
   12.7380    0.005327
   12.7390    0.005282
   12.7400    0.005236
   12.7410    0.005191
   12.7420    0.005146
   12.7430    0.005101
   12.7440    0.005056
   12.7450    0.005011
