NPP VIIRS Band Averaged Relative Spectral Response from Northrop Grumman October 2011 release to govt team.
    WL(um)      RSR
    0.5799    0.005009
    0.5800    0.005142
    0.5801    0.005276
    0.5802    0.005409
    0.5803    0.005543
    0.5804    0.005676
    0.5805    0.005811
    0.5806    0.005945
    0.5807    0.006079
    0.5808    0.006213
    0.5809    0.006347
    0.5810    0.006481
    0.5811    0.006615
    0.5812    0.006749
    0.5813    0.006883
    0.5814    0.007017
    0.5815    0.007151
    0.5816    0.007285
    0.5817    0.007420
    0.5818    0.007559
    0.5819    0.007713
    0.5820    0.007879
    0.5821    0.008048
    0.5822    0.008218
    0.5823    0.008388
    0.5824    0.008558
    0.5825    0.008728
    0.5826    0.008898
    0.5827    0.009070
    0.5828    0.009253
    0.5829    0.009488
    0.5830    0.009875
    0.5831    0.010333
    0.5832    0.010798
    0.5833    0.011263
    0.5834    0.011731
    0.5835    0.012207
    0.5836    0.012682
    0.5837    0.013158
    0.5838    0.013633
    0.5839    0.014110
    0.5840    0.014593
    0.5841    0.015077
    0.5842    0.015562
    0.5843    0.016047
    0.5844    0.016532
    0.5845    0.017019
    0.5846    0.017505
    0.5847    0.017992
    0.5848    0.018478
    0.5849    0.018965
    0.5850    0.019452
    0.5851    0.019938
    0.5852    0.020425
    0.5853    0.020911
    0.5854    0.021398
    0.5855    0.021884
    0.5856    0.022371
    0.5857    0.022859
    0.5858    0.023361
    0.5859    0.023903
    0.5860    0.024480
    0.5861    0.025069
    0.5862    0.025658
    0.5863    0.026247
    0.5864    0.026836
    0.5865    0.027425
    0.5866    0.028013
    0.5867    0.028606
    0.5868    0.029232
    0.5869    0.030008
    0.5870    0.031207
    0.5871    0.032608
    0.5872    0.034028
    0.5873    0.035448
    0.5874    0.036879
    0.5875    0.038331
    0.5876    0.039782
    0.5877    0.041234
    0.5878    0.042686
    0.5879    0.044140
    0.5880    0.045612
    0.5881    0.047089
    0.5882    0.048567
    0.5883    0.050044
    0.5884    0.051523
    0.5885    0.053006
    0.5886    0.054489
    0.5887    0.055972
    0.5888    0.057455
    0.5889    0.058938
    0.5890    0.060421
    0.5891    0.061904
    0.5892    0.063387
    0.5893    0.064870
    0.5894    0.066352
    0.5895    0.067835
    0.5896    0.069318
    0.5897    0.070807
    0.5898    0.072337
    0.5899    0.073995
    0.5900    0.075765
    0.5901    0.077569
    0.5902    0.079375
    0.5903    0.081181
    0.5904    0.082987
    0.5905    0.084793
    0.5906    0.086600
    0.5907    0.088417
    0.5908    0.090341
    0.5909    0.092737
    0.5910    0.096483
    0.5911    0.100871
    0.5912    0.105316
    0.5913    0.109762
    0.5914    0.114246
    0.5915    0.118795
    0.5916    0.123345
    0.5917    0.127894
    0.5918    0.132443
    0.5919    0.136999
    0.5920    0.141616
    0.5921    0.146247
    0.5922    0.150878
    0.5923    0.155509
    0.5924    0.160147
    0.5925    0.164797
    0.5926    0.169447
    0.5927    0.174097
    0.5928    0.178746
    0.5929    0.183396
    0.5930    0.188046
    0.5931    0.192695
    0.5932    0.197345
    0.5933    0.201994
    0.5934    0.206644
    0.5935    0.211293
    0.5936    0.215943
    0.5937    0.220600
    0.5938    0.225317
    0.5939    0.230229
    0.5940    0.235324
    0.5941    0.240477
    0.5942    0.245633
    0.5943    0.250788
    0.5944    0.255944
    0.5945    0.261100
    0.5946    0.266256
    0.5947    0.271428
    0.5948    0.276752
    0.5949    0.282797
    0.5950    0.290917
    0.5951    0.300049
    0.5952    0.309275
    0.5953    0.318501
    0.5954    0.327776
    0.5955    0.337134
    0.5956    0.346493
    0.5957    0.355852
    0.5958    0.365210
    0.5959    0.374579
    0.5960    0.384028
    0.5961    0.393498
    0.5962    0.402968
    0.5963    0.412438
    0.5964    0.421916
    0.5965    0.431410
    0.5966    0.440904
    0.5967    0.450398
    0.5968    0.459892
    0.5969    0.469386
    0.5970    0.478880
    0.5971    0.488374
    0.5972    0.497868
    0.5973    0.507362
    0.5974    0.516856
    0.5975    0.526350
    0.5976    0.535844
    0.5977    0.545331
    0.5978    0.554759
    0.5979    0.564005
    0.5980    0.573086
    0.5981    0.582115
    0.5982    0.591141
    0.5983    0.600167
    0.5984    0.609192
    0.5985    0.618218
    0.5986    0.627244
    0.5987    0.636253
    0.5988    0.645114
    0.5989    0.653274
    0.5990    0.659227
    0.5991    0.664137
    0.5992    0.668954
    0.5993    0.673770
    0.5994    0.678514
    0.5995    0.683135
    0.5996    0.687755
    0.5997    0.692376
    0.5998    0.696996
    0.5999    0.701604
    0.6000    0.706105
    0.6001    0.710580
    0.6002    0.715055
    0.6003    0.719530
    0.6004    0.723992
    0.6005    0.728431
    0.6006    0.732871
    0.6007    0.737311
    0.6008    0.741750
    0.6009    0.746190
    0.6010    0.750630
    0.6011    0.755069
    0.6012    0.759509
    0.6013    0.763949
    0.6014    0.768389
    0.6015    0.772828
    0.6016    0.777268
    0.6017    0.781701
    0.6018    0.786076
    0.6019    0.790262
    0.6020    0.794272
    0.6021    0.798228
    0.6022    0.802181
    0.6023    0.806134
    0.6024    0.810087
    0.6025    0.814040
    0.6026    0.817993
    0.6027    0.821930
    0.6028    0.825723
    0.6029    0.828841
    0.6030    0.830194
    0.6031    0.830678
    0.6032    0.831080
    0.6033    0.831482
    0.6034    0.831848
    0.6035    0.832153
    0.6036    0.832458
    0.6037    0.832763
    0.6038    0.833068
    0.6039    0.833366
    0.6040    0.833607
    0.6041    0.833833
    0.6042    0.834059
    0.6043    0.834285
    0.6044    0.834504
    0.6045    0.834713
    0.6046    0.834921
    0.6047    0.835130
    0.6048    0.835338
    0.6049    0.835547
    0.6050    0.835755
    0.6051    0.835964
    0.6052    0.836173
    0.6053    0.836381
    0.6054    0.836590
    0.6055    0.836799
    0.6056    0.837007
    0.6057    0.837217
    0.6058    0.837436
    0.6059    0.837693
    0.6060    0.837988
    0.6061    0.838294
    0.6062    0.838601
    0.6063    0.838908
    0.6064    0.839215
    0.6065    0.839522
    0.6066    0.839829
    0.6067    0.840138
    0.6068    0.840472
    0.6069    0.840944
    0.6070    0.841810
    0.6071    0.842866
    0.6072    0.843939
    0.6073    0.845012
    0.6074    0.846099
    0.6075    0.847208
    0.6076    0.848318
    0.6077    0.849428
    0.6078    0.850537
    0.6079    0.851648
    0.6080    0.852773
    0.6081    0.853901
    0.6082    0.855030
    0.6083    0.856158
    0.6084    0.857289
    0.6085    0.858423
    0.6086    0.859558
    0.6087    0.860693
    0.6088    0.861828
    0.6089    0.862962
    0.6090    0.864097
    0.6091    0.865232
    0.6092    0.866366
    0.6093    0.867501
    0.6094    0.868636
    0.6095    0.869770
    0.6096    0.870905
    0.6097    0.872038
    0.6098    0.873154
    0.6099    0.874224
    0.6100    0.875253
    0.6101    0.876269
    0.6102    0.877283
    0.6103    0.878298
    0.6104    0.879313
    0.6105    0.880327
    0.6106    0.881342
    0.6107    0.882352
    0.6108    0.883322
    0.6109    0.884128
    0.6110    0.884487
    0.6111    0.884618
    0.6112    0.884727
    0.6113    0.884837
    0.6114    0.884940
    0.6115    0.885033
    0.6116    0.885126
    0.6117    0.885218
    0.6118    0.885311
    0.6119    0.885402
    0.6120    0.885477
    0.6121    0.885548
    0.6122    0.885618
    0.6123    0.885689
    0.6124    0.885759
    0.6125    0.885827
    0.6126    0.885894
    0.6127    0.885962
    0.6128    0.886030
    0.6129    0.886098
    0.6130    0.886165
    0.6131    0.886233
    0.6132    0.886301
    0.6133    0.886369
    0.6134    0.886436
    0.6135    0.886504
    0.6136    0.886572
    0.6137    0.886640
    0.6138    0.886714
    0.6139    0.886803
    0.6140    0.886906
    0.6141    0.887014
    0.6142    0.887122
    0.6143    0.887230
    0.6144    0.887338
    0.6145    0.887446
    0.6146    0.887554
    0.6147    0.887663
    0.6148    0.887786
    0.6149    0.887966
    0.6150    0.888324
    0.6151    0.888772
    0.6152    0.889228
    0.6153    0.889684
    0.6154    0.890145
    0.6155    0.890613
    0.6156    0.891081
    0.6157    0.891549
    0.6158    0.892017
    0.6159    0.892486
    0.6160    0.892962
    0.6161    0.893441
    0.6162    0.893919
    0.6163    0.894397
    0.6164    0.894876
    0.6165    0.895357
    0.6166    0.895837
    0.6167    0.896317
    0.6168    0.896798
    0.6169    0.897278
    0.6170    0.897758
    0.6171    0.898239
    0.6172    0.898719
    0.6173    0.899200
    0.6174    0.899680
    0.6175    0.900161
    0.6176    0.900641
    0.6177    0.901122
    0.6178    0.901604
    0.6179    0.902090
    0.6180    0.902577
    0.6181    0.903066
    0.6182    0.903554
    0.6183    0.904043
    0.6184    0.904531
    0.6185    0.905020
    0.6186    0.905509
    0.6187    0.905998
    0.6188    0.906490
    0.6189    0.906990
    0.6190    0.907481
    0.6191    0.907975
    0.6192    0.908470
    0.6193    0.908965
    0.6194    0.909456
    0.6195    0.909942
    0.6196    0.910427
    0.6197    0.910912
    0.6198    0.911397
    0.6199    0.911882
    0.6200    0.912365
    0.6201    0.912847
    0.6202    0.913329
    0.6203    0.913811
    0.6204    0.914292
    0.6205    0.914772
    0.6206    0.915253
    0.6207    0.915733
    0.6208    0.916213
    0.6209    0.916693
    0.6210    0.917174
    0.6211    0.917654
    0.6212    0.918134
    0.6213    0.918614
    0.6214    0.919094
    0.6215    0.919575
    0.6216    0.920055
    0.6217    0.920534
    0.6218    0.921007
    0.6219    0.921456
    0.6220    0.921882
    0.6221    0.922301
    0.6222    0.922720
    0.6223    0.923139
    0.6224    0.923557
    0.6225    0.923976
    0.6226    0.924395
    0.6227    0.924811
    0.6228    0.925211
    0.6229    0.925519
    0.6230    0.925538
    0.6231    0.925417
    0.6232    0.925283
    0.6233    0.925149
    0.6234    0.925006
    0.6235    0.924846
    0.6236    0.924685
    0.6237    0.924525
    0.6238    0.924365
    0.6239    0.924204
    0.6240    0.924029
    0.6241    0.923852
    0.6242    0.923675
    0.6243    0.923497
    0.6244    0.923318
    0.6245    0.923136
    0.6246    0.922954
    0.6247    0.922772
    0.6248    0.922590
    0.6249    0.922407
    0.6250    0.922225
    0.6251    0.922043
    0.6252    0.921861
    0.6253    0.921678
    0.6254    0.921496
    0.6255    0.921314
    0.6256    0.921132
    0.6257    0.920951
    0.6258    0.920778
    0.6259    0.920626
    0.6260    0.920491
    0.6261    0.920363
    0.6262    0.920234
    0.6263    0.920106
    0.6264    0.919978
    0.6265    0.919849
    0.6266    0.919721
    0.6267    0.919596
    0.6268    0.919492
    0.6269    0.919466
    0.6270    0.919722
    0.6271    0.920119
    0.6272    0.920530
    0.6273    0.920940
    0.6274    0.921355
    0.6275    0.921776
    0.6276    0.922196
    0.6277    0.922617
    0.6278    0.923038
    0.6279    0.923461
    0.6280    0.923899
    0.6281    0.924341
    0.6282    0.924783
    0.6283    0.925225
    0.6284    0.925668
    0.6285    0.926111
    0.6286    0.926555
    0.6287    0.926999
    0.6288    0.927443
    0.6289    0.927887
    0.6290    0.928330
    0.6291    0.928774
    0.6292    0.929218
    0.6293    0.929662
    0.6294    0.930105
    0.6295    0.930549
    0.6296    0.930993
    0.6297    0.931438
    0.6298    0.931895
    0.6299    0.932392
    0.6300    0.932925
    0.6301    0.933468
    0.6302    0.934011
    0.6303    0.934554
    0.6304    0.935098
    0.6305    0.935641
    0.6306    0.936184
    0.6307    0.936731
    0.6308    0.937308
    0.6309    0.938025
    0.6310    0.939083
    0.6311    0.940309
    0.6312    0.941551
    0.6313    0.942793
    0.6314    0.944041
    0.6315    0.945301
    0.6316    0.946561
    0.6317    0.947821
    0.6318    0.949081
    0.6319    0.950342
    0.6320    0.951613
    0.6321    0.952887
    0.6322    0.954161
    0.6323    0.955435
    0.6324    0.956711
    0.6325    0.957988
    0.6326    0.959265
    0.6327    0.960543
    0.6328    0.961820
    0.6329    0.963097
    0.6330    0.964375
    0.6331    0.965652
    0.6332    0.966930
    0.6333    0.968207
    0.6334    0.969485
    0.6335    0.970762
    0.6336    0.972039
    0.6337    0.973314
    0.6338    0.974569
    0.6339    0.975773
    0.6340    0.976936
    0.6341    0.978085
    0.6342    0.979233
    0.6343    0.980381
    0.6344    0.981529
    0.6345    0.982677
    0.6346    0.983825
    0.6347    0.984967
    0.6348    0.986059
    0.6349    0.986977
    0.6350    0.987410
    0.6351    0.987588
    0.6352    0.987741
    0.6353    0.987894
    0.6354    0.988048
    0.6355    0.988203
    0.6356    0.988358
    0.6357    0.988513
    0.6358    0.988668
    0.6359    0.988820
    0.6360    0.988955
    0.6361    0.989085
    0.6362    0.989215
    0.6363    0.989344
    0.6364    0.989474
    0.6365    0.989604
    0.6366    0.989734
    0.6367    0.989865
    0.6368    0.989995
    0.6369    0.990125
    0.6370    0.990255
    0.6371    0.990385
    0.6372    0.990515
    0.6373    0.990645
    0.6374    0.990775
    0.6375    0.990905
    0.6376    0.991035
    0.6377    0.991164
    0.6378    0.991284
    0.6379    0.991372
    0.6380    0.991430
    0.6381    0.991480
    0.6382    0.991529
    0.6383    0.991578
    0.6384    0.991627
    0.6385    0.991677
    0.6386    0.991726
    0.6387    0.991773
    0.6388    0.991795
    0.6389    0.991699
    0.6390    0.991258
    0.6391    0.990660
    0.6392    0.990049
    0.6393    0.989439
    0.6394    0.988817
    0.6395    0.988178
    0.6396    0.987539
    0.6397    0.986900
    0.6398    0.986261
    0.6399    0.985620
    0.6400    0.984963
    0.6401    0.984303
    0.6402    0.983642
    0.6403    0.982982
    0.6404    0.982319
    0.6405    0.981654
    0.6406    0.980988
    0.6407    0.980322
    0.6408    0.979657
    0.6409    0.978991
    0.6410    0.978326
    0.6411    0.977660
    0.6412    0.976994
    0.6413    0.976329
    0.6414    0.975663
    0.6415    0.974998
    0.6416    0.974332
    0.6417    0.973666
    0.6418    0.972995
    0.6419    0.972308
    0.6420    0.971602
    0.6421    0.970891
    0.6422    0.970179
    0.6423    0.969467
    0.6424    0.968756
    0.6425    0.968044
    0.6426    0.967332
    0.6427    0.966619
    0.6428    0.965894
    0.6429    0.965100
    0.6430    0.964057
    0.6431    0.962894
    0.6432    0.961719
    0.6433    0.960545
    0.6434    0.959361
    0.6435    0.958160
    0.6436    0.956960
    0.6437    0.955760
    0.6438    0.954559
    0.6439    0.953357
    0.6440    0.952143
    0.6441    0.950926
    0.6442    0.949709
    0.6443    0.948492
    0.6444    0.947274
    0.6445    0.946052
    0.6446    0.944831
    0.6447    0.943609
    0.6448    0.942388
    0.6449    0.941166
    0.6450    0.939945
    0.6451    0.938723
    0.6452    0.937501
    0.6453    0.936280
    0.6454    0.935058
    0.6455    0.933837
    0.6456    0.932615
    0.6457    0.931395
    0.6458    0.930184
    0.6459    0.928999
    0.6460    0.927842
    0.6461    0.926693
    0.6462    0.925545
    0.6463    0.924397
    0.6464    0.923248
    0.6465    0.922100
    0.6466    0.920952
    0.6467    0.919807
    0.6468    0.918684
    0.6469    0.917671
    0.6470    0.917048
    0.6471    0.916612
    0.6472    0.916193
    0.6473    0.915774
    0.6474    0.915365
    0.6475    0.914973
    0.6476    0.914581
    0.6477    0.914189
    0.6478    0.913797
    0.6479    0.913407
    0.6480    0.913038
    0.6481    0.912674
    0.6482    0.912309
    0.6483    0.911945
    0.6484    0.911583
    0.6485    0.911223
    0.6486    0.910864
    0.6487    0.910504
    0.6488    0.910145
    0.6489    0.909785
    0.6490    0.909426
    0.6491    0.909066
    0.6492    0.908707
    0.6493    0.908347
    0.6494    0.907987
    0.6495    0.907628
    0.6496    0.907268
    0.6497    0.906912
    0.6498    0.906585
    0.6499    0.906341
    0.6500    0.906173
    0.6501    0.906030
    0.6502    0.905887
    0.6503    0.905745
    0.6504    0.905603
    0.6505    0.905461
    0.6506    0.905318
    0.6507    0.905184
    0.6508    0.905122
    0.6509    0.905366
    0.6510    0.906514
    0.6511    0.908101
    0.6512    0.909730
    0.6513    0.911358
    0.6514    0.913007
    0.6515    0.914688
    0.6516    0.916370
    0.6517    0.918052
    0.6518    0.919733
    0.6519    0.921419
    0.6520    0.923144
    0.6521    0.924877
    0.6522    0.926611
    0.6523    0.928345
    0.6524    0.930083
    0.6525    0.931826
    0.6526    0.933569
    0.6527    0.935313
    0.6528    0.937056
    0.6529    0.938799
    0.6530    0.940542
    0.6531    0.942286
    0.6532    0.944029
    0.6533    0.945772
    0.6534    0.947516
    0.6535    0.949259
    0.6536    0.951002
    0.6537    0.952744
    0.6538    0.954476
    0.6539    0.956173
    0.6540    0.957836
    0.6541    0.959488
    0.6542    0.961140
    0.6543    0.962792
    0.6544    0.964444
    0.6545    0.966096
    0.6546    0.967748
    0.6547    0.969397
    0.6548    0.971020
    0.6549    0.972503
    0.6550    0.973536
    0.6551    0.974362
    0.6552    0.975170
    0.6553    0.975978
    0.6554    0.976769
    0.6555    0.977530
    0.6556    0.978290
    0.6557    0.979051
    0.6558    0.979812
    0.6559    0.980570
    0.6560    0.981305
    0.6561    0.982035
    0.6562    0.982765
    0.6563    0.983495
    0.6564    0.984222
    0.6565    0.984943
    0.6566    0.985664
    0.6567    0.986386
    0.6568    0.987107
    0.6569    0.987828
    0.6570    0.988550
    0.6571    0.989271
    0.6572    0.989992
    0.6573    0.990714
    0.6574    0.991435
    0.6575    0.992157
    0.6576    0.992878
    0.6577    0.993596
    0.6578    0.994290
    0.6579    0.994914
    0.6580    0.995478
    0.6581    0.996023
    0.6582    0.996568
    0.6583    0.997112
    0.6584    0.997656
    0.6585    0.998201
    0.6586    0.998745
    0.6587    0.999282
    0.6588    0.999759
    0.6589    1.000000
    0.6590    0.999686
    0.6591    0.999086
    0.6592    0.998457
    0.6593    0.997828
    0.6594    0.997201
    0.6595    0.996578
    0.6596    0.995954
    0.6597    0.995331
    0.6598    0.994707
    0.6599    0.994082
    0.6600    0.993442
    0.6601    0.992798
    0.6602    0.992153
    0.6603    0.991509
    0.6604    0.990865
    0.6605    0.990222
    0.6606    0.989579
    0.6607    0.988936
    0.6608    0.988293
    0.6609    0.987650
    0.6610    0.987007
    0.6611    0.986364
    0.6612    0.985721
    0.6613    0.985078
    0.6614    0.984435
    0.6615    0.983792
    0.6616    0.983149
    0.6617    0.982507
    0.6618    0.981865
    0.6619    0.981233
    0.6620    0.980611
    0.6621    0.979992
    0.6622    0.979373
    0.6623    0.978754
    0.6624    0.978135
    0.6625    0.977516
    0.6626    0.976897
    0.6627    0.976278
    0.6628    0.975662
    0.6629    0.975084
    0.6630    0.974595
    0.6631    0.974145
    0.6632    0.973697
    0.6633    0.973249
    0.6634    0.972807
    0.6635    0.972375
    0.6636    0.971944
    0.6637    0.971512
    0.6638    0.971080
    0.6639    0.970648
    0.6640    0.970219
    0.6641    0.969790
    0.6642    0.969362
    0.6643    0.968933
    0.6644    0.968506
    0.6645    0.968080
    0.6646    0.967654
    0.6647    0.967228
    0.6648    0.966803
    0.6649    0.966377
    0.6650    0.965951
    0.6651    0.965525
    0.6652    0.965100
    0.6653    0.964674
    0.6654    0.964248
    0.6655    0.963822
    0.6656    0.963396
    0.6657    0.962972
    0.6658    0.962554
    0.6659    0.962159
    0.6660    0.961778
    0.6661    0.961399
    0.6662    0.961021
    0.6663    0.960643
    0.6664    0.960265
    0.6665    0.959887
    0.6666    0.959509
    0.6667    0.959133
    0.6668    0.958776
    0.6669    0.958478
    0.6670    0.958206
    0.6671    0.957949
    0.6672    0.957694
    0.6673    0.957438
    0.6674    0.957177
    0.6675    0.956906
    0.6676    0.956635
    0.6677    0.956364
    0.6678    0.956092
    0.6679    0.955821
    0.6680    0.955544
    0.6681    0.955265
    0.6682    0.954987
    0.6683    0.954709
    0.6684    0.954429
    0.6685    0.954148
    0.6686    0.953867
    0.6687    0.953586
    0.6688    0.953305
    0.6689    0.953024
    0.6690    0.952743
    0.6691    0.952462
    0.6692    0.952181
    0.6693    0.951900
    0.6694    0.951619
    0.6695    0.951338
    0.6696    0.951056
    0.6697    0.950775
    0.6698    0.950494
    0.6699    0.950222
    0.6700    0.949965
    0.6701    0.949715
    0.6702    0.949466
    0.6703    0.949216
    0.6704    0.948966
    0.6705    0.948717
    0.6706    0.948467
    0.6707    0.948217
    0.6708    0.947969
    0.6709    0.947753
    0.6710    0.947669
    0.6711    0.947678
    0.6712    0.947697
    0.6713    0.947717
    0.6714    0.947731
    0.6715    0.947735
    0.6716    0.947739
    0.6717    0.947743
    0.6718    0.947748
    0.6719    0.947752
    0.6720    0.947754
    0.6721    0.947757
    0.6722    0.947760
    0.6723    0.947763
    0.6724    0.947765
    0.6725    0.947765
    0.6726    0.947765
    0.6727    0.947766
    0.6728    0.947766
    0.6729    0.947766
    0.6730    0.947766
    0.6731    0.947767
    0.6732    0.947767
    0.6733    0.947767
    0.6734    0.947767
    0.6735    0.947768
    0.6736    0.947768
    0.6737    0.947749
    0.6738    0.947570
    0.6739    0.946916
    0.6740    0.945848
    0.6741    0.944655
    0.6742    0.943455
    0.6743    0.942255
    0.6744    0.941055
    0.6745    0.939855
    0.6746    0.938655
    0.6747    0.937411
    0.6748    0.935770
    0.6749    0.932388
    0.6750    0.924198
    0.6751    0.913727
    0.6752    0.903050
    0.6753    0.892373
    0.6754    0.881579
    0.6755    0.870588
    0.6756    0.859597
    0.6757    0.848606
    0.6758    0.837615
    0.6759    0.826600
    0.6760    0.815380
    0.6761    0.804110
    0.6762    0.792839
    0.6763    0.781568
    0.6764    0.770277
    0.6765    0.758950
    0.6766    0.747623
    0.6767    0.736296
    0.6768    0.724969
    0.6769    0.713642
    0.6770    0.702316
    0.6771    0.690989
    0.6772    0.679662
    0.6773    0.668335
    0.6774    0.657008
    0.6775    0.645681
    0.6776    0.634354
    0.6777    0.623030
    0.6778    0.611720
    0.6779    0.600422
    0.6780    0.589112
    0.6781    0.577795
    0.6782    0.566479
    0.6783    0.555162
    0.6784    0.543845
    0.6785    0.532529
    0.6786    0.521212
    0.6787    0.509902
    0.6788    0.498626
    0.6789    0.487409
    0.6790    0.476434
    0.6791    0.465509
    0.6792    0.454584
    0.6793    0.443660
    0.6794    0.432755
    0.6795    0.421885
    0.6796    0.411015
    0.6797    0.400146
    0.6798    0.389276
    0.6799    0.378410
    0.6800    0.367584
    0.6801    0.356765
    0.6802    0.345947
    0.6803    0.335129
    0.6804    0.324314
    0.6805    0.313506
    0.6806    0.302697
    0.6807    0.291889
    0.6808    0.281080
    0.6809    0.270272
    0.6810    0.259464
    0.6811    0.248656
    0.6812    0.237847
    0.6813    0.227039
    0.6814    0.216231
    0.6815    0.205422
    0.6816    0.194614
    0.6817    0.183821
    0.6818    0.173154
    0.6819    0.162887
    0.6820    0.152983
    0.6821    0.143191
    0.6822    0.133406
    0.6823    0.123620
    0.6824    0.113835
    0.6825    0.104049
    0.6826    0.094263
    0.6827    0.084512
    0.6828    0.075078
    0.6829    0.067099
    0.6830    0.063134
    0.6831    0.061115
    0.6832    0.059274
    0.6833    0.057433
    0.6834    0.055683
    0.6835    0.054086
    0.6836    0.052490
    0.6837    0.050893
    0.6838    0.049297
    0.6839    0.047719
    0.6840    0.046295
    0.6841    0.044910
    0.6842    0.043525
    0.6843    0.042140
    0.6844    0.040772
    0.6845    0.039431
    0.6846    0.038090
    0.6847    0.036749
    0.6848    0.035408
    0.6849    0.034068
    0.6850    0.032727
    0.6851    0.031386
    0.6852    0.030045
    0.6853    0.028704
    0.6854    0.027363
    0.6855    0.026022
    0.6856    0.024681
    0.6857    0.023342
    0.6858    0.022020
    0.6859    0.020752
    0.6860    0.019530
    0.6861    0.018324
    0.6862    0.017117
    0.6863    0.015911
    0.6864    0.014705
    0.6865    0.013499
    0.6866    0.012293
    0.6867    0.011091
    0.6868    0.009932
    0.6869    0.008963
    0.6870    0.008486
    0.6871    0.008248
    0.6872    0.008032
    0.6873    0.007817
    0.6874    0.007611
    0.6875    0.007423
    0.6876    0.007235
    0.6877    0.007048
    0.6878    0.006860
    0.6879    0.006674
    0.6880    0.006506
    0.6881    0.006342
    0.6882    0.006178
    0.6883    0.006015
    0.6884    0.005853
    0.6885    0.005694
    0.6886    0.005535
    0.6887    0.005377
    0.6888    0.005218
    0.6889    0.005059
